Data from aliejussilic_1.000mW_RamanShift_i1_RamanShift_11-22-12-161.txt Node
Date: Wed Jul 20 11:22:12 EEST 2016
User: darbas
Spectrometer: QEB1668
Trigger mode: 0
Integration Time (sec): 1.000000E1
Scans to average: 1
Electric dark correction enabled: true
Nonlinearity correction enabled: false
Boxcar width: 0
XAxis mode: Raman Shifts
Number of Pixels in Spectrum: 1044
>>>>>Begin Spectral Data<<<<<
		20.267	22.941	25.613	28.284	30.953	33.62	36.285	38.949	41.611	44.271	46.93	49.587	52.242	54.896	57.548	60.198	62.847	65.494	68.139	70.782	73.424	76.065	78.703	81.34	83.975	86.609	89.241	91.871	94.5	97.127	99.752	102.376	104.998	107.618	110.237	112.854	115.469	118.083	120.695	123.306	125.915	128.522	131.127	133.731	136.334	138.934	141.533	144.131	146.727	149.321	151.913	154.504	157.093	159.681	162.267	164.851	167.434	170.015	172.595	175.173	177.749	180.324	182.897	185.468	188.038	190.606	193.173	195.738	198.301	200.863	203.423	205.982	208.539	211.094	213.648	216.2	218.751	221.3	223.848	226.393	228.938	231.48	234.021	236.561	239.099	241.635	244.17	246.703	249.235	251.765	254.293	256.82	259.345	261.869	264.391	266.911	269.43	271.948	274.464	276.978	279.491	282.002	284.511	287.019	289.526	292.031	294.534	297.036	299.536	302.035	304.532	307.028	309.522	312.014	314.505	316.994	319.482	321.968	324.453	326.936	329.418	331.898	334.377	336.854	339.329	341.803	344.276	346.747	349.216	351.684	354.15	356.615	359.078	361.54	364	366.459	368.916	371.372	373.826	376.278	378.729	381.179	383.627	386.074	388.519	390.962	393.404	395.845	398.284	400.721	403.157	405.592	408.025	410.456	412.886	415.314	417.741	420.167	422.591	425.013	427.434	429.854	432.272	434.688	437.103	439.517	441.929	444.339	446.748	449.156	451.562	453.967	456.37	458.772	461.172	463.57	465.968	468.363	470.758	473.15	475.542	477.932	480.32	482.707	485.092	487.476	489.859	492.24	494.62	496.998	499.374	501.75	504.123	506.496	508.867	511.236	513.604	515.97	518.335	520.699	523.061	525.422	527.781	530.139	532.495	534.85	537.204	539.556	541.906	544.255	546.603	548.949	551.294	553.638	555.979	558.32	560.659	562.997	565.333	567.668	570.001	572.333	574.664	576.993	579.32	581.647	583.972	586.295	588.617	590.937	593.257	595.574	597.891	600.206	602.519	604.831	607.142	609.451	611.759	614.065	616.371	618.674	620.976	623.277	625.577	627.875	630.171	632.467	634.76	637.053	639.344	641.634	643.922	646.209	648.494	650.778	653.061	655.342	657.622	659.901	662.178	664.453	666.728	669.001	671.272	673.543	675.812	678.079	680.345	682.61	684.873	687.135	689.396	691.655	693.913	696.169	698.424	700.678	702.93	705.181	707.431	709.679	711.926	714.172	716.416	718.659	720.9	723.14	725.379	727.617	729.853	732.087	734.321	736.553	738.783	741.012	743.24	745.467	747.692	749.916	752.139	754.36	756.58	758.798	761.015	763.231	765.446	767.659	769.871	772.081	774.29	776.498	778.705	780.91	783.114	785.316	787.517	789.717	791.916	794.113	796.309	798.503	800.696	802.888	805.079	807.268	809.456	811.642	813.828	816.012	818.194	820.376	822.556	824.734	826.912	829.088	831.263	833.436	835.608	837.779	839.948	842.117	844.284	846.449	848.614	850.777	852.938	855.099	857.258	859.416	861.572	863.727	865.881	868.034	870.185	872.335	874.484	876.631	878.778	880.922	883.066	885.208	887.349	889.489	891.628	893.765	895.901	898.035	900.169	902.301	904.431	906.561	908.689	910.816	912.942	915.066	917.189	919.311	921.432	923.551	925.669	927.786	929.901	932.015	934.128	936.24	938.35	940.46	942.567	944.674	946.779	948.884	950.986	953.088	955.188	957.287	959.385	961.482	963.577	965.671	967.764	969.856	971.946	974.035	976.123	978.209	980.295	982.379	984.462	986.543	988.624	990.703	992.781	994.857	996.933	999.007	1001.08	1003.151	1005.222	1007.291	1009.359	1011.426	1013.491	1015.556	1017.619	1019.68	1021.741	1023.8	1025.858	1027.915	1029.971	1032.025	1034.079	1036.131	1038.182	1040.231	1042.279	1044.327	1046.372	1048.417	1050.461	1052.503	1054.544	1056.584	1058.622	1060.66	1062.696	1064.731	1066.765	1068.797	1070.829	1072.859	1074.888	1076.915	1078.942	1080.967	1082.991	1085.014	1087.036	1089.056	1091.076	1093.094	1095.111	1097.127	1099.141	1101.154	1103.166	1105.177	1107.187	1109.196	1111.203	1113.209	1115.214	1117.218	1119.221	1121.222	1123.222	1125.221	1127.219	1129.216	1131.211	1133.206	1135.199	1137.191	1139.181	1141.171	1143.159	1145.147	1147.133	1149.118	1151.101	1153.084	1155.065	1157.045	1159.024	1161.002	1162.979	1164.954	1166.929	1168.902	1170.874	1172.844	1174.814	1176.783	1178.75	1180.716	1182.681	1184.645	1186.608	1188.569	1190.53	1192.489	1194.447	1196.404	1198.359	1200.314	1202.267	1204.22	1206.171	1208.121	1210.069	1212.017	1213.964	1215.909	1217.853	1219.796	1221.738	1223.679	1225.619	1227.557	1229.494	1231.431	1233.366	1235.3	1237.232	1239.164	1241.094	1243.024	1244.952	1246.879	1248.805	1250.73	1252.653	1254.576	1256.497	1258.418	1260.337	1262.255	1264.172	1266.087	1268.002	1269.916	1271.828	1273.739	1275.649	1277.558	1279.466	1281.373	1283.279	1285.183	1287.086	1288.989	1290.89	1292.79	1294.689	1296.587	1298.483	1300.379	1302.273	1304.167	1306.059	1307.95	1309.84	1311.729	1313.617	1315.503	1317.389	1319.273	1321.157	1323.039	1324.92	1326.8	1328.679	1330.557	1332.433	1334.309	1336.184	1338.057	1339.929	1341.801	1343.671	1345.54	1347.408	1349.274	1351.14	1353.005	1354.868	1356.731	1358.592	1360.452	1362.312	1364.17	1366.027	1367.883	1369.737	1371.591	1373.444	1375.295	1377.146	1378.995	1380.843	1382.691	1384.537	1386.382	1388.226	1390.069	1391.911	1393.751	1395.591	1397.429	1399.267	1401.103	1402.939	1404.773	1406.606	1408.438	1410.269	1412.099	1413.928	1415.756	1417.583	1419.409	1421.233	1423.057	1424.879	1426.701	1428.521	1430.34	1432.159	1433.976	1435.792	1437.607	1439.421	1441.234	1443.046	1444.857	1446.666	1448.475	1450.283	1452.089	1453.895	1455.699	1457.503	1459.305	1461.106	1462.907	1464.706	1466.504	1468.301	1470.097	1471.892	1473.686	1475.479	1477.271	1479.062	1480.852	1482.64	1484.428	1486.215	1488	1489.785	1491.568	1493.351	1495.132	1496.913	1498.692	1500.47	1502.248	1504.024	1505.799	1507.573	1509.346	1511.119	1512.89	1514.66	1516.429	1518.197	1519.964	1521.729	1523.494	1525.258	1527.021	1528.783	1530.544	1532.303	1534.062	1535.82	1537.577	1539.332	1541.087	1542.84	1544.593	1546.345	1548.095	1549.845	1551.593	1553.341	1555.087	1556.833	1558.577	1560.32	1562.063	1563.804	1565.545	1567.284	1569.022	1570.76	1572.496	1574.231	1575.966	1577.699	1579.431	1581.163	1582.893	1584.622	1586.35	1588.078	1589.804	1591.529	1593.254	1594.977	1596.699	1598.42	1600.141	1601.86	1603.578	1605.295	1607.012	1608.727	1610.441	1612.154	1613.867	1615.578	1617.288	1618.997	1620.706	1622.413	1624.119	1625.825	1627.529	1629.232	1630.935	1632.636	1634.336	1636.036	1637.734	1639.432	1641.128	1642.823	1644.518	1646.211	1647.904	1649.595	1651.286	1652.975	1654.664	1656.352	1658.038	1659.724	1661.408	1663.092	1664.775	1666.456	1668.137	1669.817	1671.496	1673.174	1674.85	1676.526	1678.201	1679.875	1681.548	1683.22	1684.891	1686.561	1688.23	1689.898	1691.565	1693.232	1694.897	1696.561	1698.224	1699.887	1701.548	1703.208	1704.868	1706.526	1708.184	1709.84	1711.496	1713.151	1714.804	1716.457	1718.109	1719.76	1721.409	1723.058	1724.706	1726.353	1727.999	1729.644	1731.288	1732.931	1734.574	1736.215	1737.855	1739.495	1741.133	1742.77	1744.407	1746.043	1747.677	1749.311	1750.944	1752.575	1754.206	1755.836	1757.465	1759.093	1760.72	1762.346	1763.971	1765.596	1767.219	1768.841	1770.463	1772.083	1773.703	1775.321	1776.939	1778.556	1780.171	1781.786	1783.4	1785.013	1786.625	1788.236	1789.847	1791.456	1793.064	1794.672	1796.278	1797.884	1799.488	1801.092	1802.695	1804.297	1805.897	1807.497	1809.097	1810.695	1812.292	1813.888	1815.484	1817.078	1818.671	1820.264	1821.856	1823.447	1825.036	1826.625	1828.213	1829.8	1831.387	1832.972	1834.556	1836.14	1837.722	1839.304	1840.884	1842.464	1844.043	1845.621	1847.198	1848.774	1850.349	1851.923	1853.497	1855.069	1856.641	1858.211	1859.781	1861.35	1862.918	1864.485	1866.051	1867.616	1869.181	1870.744	1872.307	1873.868	1875.429	1876.989	1878.548	1880.106	1881.663	1883.219	1884.774	1886.329	1887.882	1889.435	1890.986	1892.537	1894.087	1895.636	1897.184	1898.732	1900.278	1901.823	1903.368	1904.912	1906.454	1907.996	1909.537	1911.077	1912.617	1914.155	1915.692	1917.229	1918.765	1920.299	1921.833	1923.366	1924.898	1926.43	1927.96	1929.489	1931.018	1932.546	1934.073	1935.599	1937.124	1938.648	1940.171	1941.693	1943.215	1944.736	1946.255	1947.774	1949.292	1950.81	1952.326	1953.841	1955.356	1956.869	1958.382	1959.894	1961.405	1962.915	1964.425	1965.933	1967.441	1968.947	1970.453	1971.958	1973.462	1974.965	1976.468	1977.969	1979.47	1980.97	1982.469	1983.967	1985.464	1986.96	1988.455	1989.95	1991.444	1992.936	1994.428	1995.92	1997.41	1998.899	2000.388	2001.875	2003.362	2004.848	2006.333	2007.818	2009.301	2010.784	2012.265	2013.746	2015.226	2016.705	2018.183	2019.661	2021.137	2022.613	2024.088	2025.562	2027.035	2028.507	2029.979	2031.449	2032.919	2034.388	2035.856	2037.323	2038.79	2040.255	2041.72	2043.184	2044.647	2046.109	2047.57	2049.031	2050.49	2051.949	2053.407	2054.864	2056.32	2057.776	2059.23	2060.684	2062.137	2063.589	2065.04	2066.491	2067.94	2069.389	2070.837	2072.284	2073.73	2075.175	2076.62	2078.064	2079.507	2080.949	2082.39	2083.83	2085.27	2086.708	2088.146
11:22:12.161	1469002932161	12.38	6.38	11.38	10.38	5.38	11.38	13.38	19.38	13.38	16.38	21.38	17.38	19.38	18.38	18.38	26.38	28.38	26.38	35.38	38.38	41.38	44.38	72.38	68.38	84.38	104.38	134.38	171.38	213.38	283.38	372.38	502.38	678.38	895.38	1125.38	1381.38	1606.38	1771.38	1843.38	1800.38	1709.38	1537.38	1342.38	1134.38	974.38	823.38	715.38	618.38	542.38	495.38	457.38	424.38	401.38	377.38	374.38	361.38	337.38	339.38	346.38	337.38	369.38	362.38	403.38	436.38	487.38	544.38	641.38	753.38	903.38	1118.38	1380.38	1730.38	2171.38	2670.38	3290.38	4031.38	4862.38	5783.38	6703.38	7663.38	8573.38	9413.38	10115.38	10607.38	11002.38	11187.38	11285.38	11247.38	11099.38	10960.38	10727.38	10500.38	10339.38	10114.38	9996.38	9841.38	9768.38	9678.38	9668.38	9608.38	9663.38	9705.38	9801.38	9863.38	9944.38	10047.38	10162.38	10315.38	10448.38	10586.38	10722.38	10944.38	10980.38	11033.38	10941.38	10889.38	10837.38	10748.38	10610.38	10559.38	10418.38	10311.38	10194.38	10115.38	9973.38	9846.38	9705.38	9594.38	9502.38	9467.38	9385.38	9290.38	9233.38	9180.38	9136.38	9061.38	9054.38	9026.38	9041.38	9035.38	9059.38	9085.38	9106.38	9161.38	9163.38	9178.38	9248.38	9306.38	9353.38	9453.38	9468.38	9575.38	9592.38	9665.38	9727.38	9681.38	9678.38	9765.38	9707.38	9747.38	9695.38	9719.38	9710.38	9672.38	9639.38	9637.38	9572.38	9540.38	9457.38	9415.38	9385.38	9306.38	9318.38	9306.38	9230.38	9227.38	9237.38	9184.38	9191.38	9146.38	9198.38	9184.38	9195.38	9133.38	9167.38	9190.38	9164.38	9136.38	9148.38	9138.38	9168.38	9171.38	9141.38	9217.38	9251.38	9329.38	9541.38	10045.38	11442.38	14332.38	17623.38	19526.38	19661.38	17863.38	14468.38	11406.38	9772.38	9099.38	8814.38	8611.38	8474.38	8385.38	8290.38	8200.38	8136.38	8020.38	7988.38	7918.38	7884.38	7868.38	7790.38	7774.38	7771.38	7799.38	7737.38	7739.38	7738.38	7773.38	7746.38	7799.38	7791.38	7775.38	7793.38	7772.38	7785.38	7818.38	7779.38	7755.38	7781.38	7726.38	7708.38	7577.38	7545.38	7480.38	7455.38	7421.38	7376.38	7349.38	7302.38	7224.38	7182.38	7169.38	7159.38	7136.38	7099.38	7030.38	7030.38	6967.38	6904.38	6904.38	6854.38	6867.38	6791.38	6777.38	6765.38	6681.38	6651.38	6642.38	6579.38	6557.38	6551.38	6503.38	6516.38	6476.38	6514.38	6486.38	6502.38	6521.38	6545.38	6542.38	6544.38	6547.38	6538.38	6575.38	6585.38	6646.38	6649.38	6664.38	6703.38	6717.38	6727.38	6691.38	6662.38	6607.38	6580.38	6526.38	6465.38	6417.38	6332.38	6276.38	6261.38	6204.38	6185.38	6196.38	6108.38	6124.38	6105.38	6119.38	6078.38	6071.38	6026.38	6001.38	5980.38	5970.38	5947.38	5912.38	5885.38	5856.38	5873.38	5835.38	5820.38	5844.38	5828.38	5885.38	5942.38	5939.38	5993.38	6043.38	6109.38	6142.38	6171.38	6227.38	6248.38	6268.38	6304.38	6359.38	6436.38	6546.38	6625.38	6787.38	6891.38	6998.38	7067.38	7152.38	7229.38	7273.38	7299.38	7335.38	7373.38	7369.38	7404.38	7456.38	7541.38	7643.38	7688.38	7754.38	7778.38	7764.38	7697.38	7579.38	7476.38	7356.38	7251.38	7171.38	7122.38	7049.38	6965.38	6842.38	6811.38	6689.38	6616.38	6529.38	6488.38	6482.38	6504.38	6527.38	6484.38	6482.38	6475.38	6478.38	6441.38	6457.38	6418.38	6426.38	6478.38	6488.38	6496.38	6568.38	6615.38	6645.38	6629.38	6602.38	6607.38	6557.38	6512.38	6452.38	6430.38	6411.38	6391.38	6408.38	6443.38	6509.38	6564.38	6616.38	6664.38	6673.38	6564.38	6407.38	6223.38	6045.38	5883.38	5726.38	5624.38	5537.38	5452.38	5412.38	5382.38	5366.38	5400.38	5460.38	5454.38	5497.38	5529.38	5601.38	5641.38	5710.38	5739.38	5808.38	5810.38	5844.38	5821.38	5823.38	5778.38	5748.38	5780.38	5735.38	5753.38	5728.38	5732.38	5702.38	5714.38	5707.38	5696.38	5768.38	5828.38	5936.38	6062.38	6253.38	6429.38	6607.38	6679.38	6740.38	6792.38	6847.38	6877.38	6933.38	7045.38	7101.38	7155.38	7096.38	7051.38	6941.38	6713.38	6547.38	6391.38	6118.38	5925.38	5759.38	5586.38	5420.38	5311.38	5253.38	5240.38	5206.38	5165.38	5172.38	5160.38	5098.38	5005.38	4901.38	4745.38	4599.38	4486.38	4367.38	4290.38	4205.38	4173.38	4148.38	4131.38	4089.38	4099.38	4068.38	4048.38	4022.38	4003.38	4003.38	3980.38	3980.38	3966.38	3993.38	3987.38	4019.38	4005.38	3993.38	4046.38	3985.38	3994.38	4027.38	3983.38	3966.38	3969.38	3968.38	3929.38	3942.38	3951.38	3918.38	3898.38	3912.38	3892.38	3887.38	3883.38	3866.38	3856.38	3871.38	3869.38	3916.38	3889.38	3931.38	3989.38	3997.38	4063.38	4088.38	4123.38	4230.38	4251.38	4368.38	4447.38	4575.38	4706.38	4817.38	4967.38	5147.38	5366.38	5540.38	5792.38	6076.38	6290.38	6560.38	6800.38	7002.38	7145.38	7237.38	7264.38	7251.38	7214.38	7059.38	6931.38	6689.38	6525.38	6365.38	6222.38	6131.38	6084.38	6108.38	6227.38	6414.38	6619.38	6942.38	7250.38	7470.38	7567.38	7677.38	7618.38	7384.38	7119.38	6832.38	6473.38	6178.38	5861.38	5607.38	5417.38	5175.38	4991.38	4791.38	4602.38	4432.38	4241.38	4130.38	3990.38	3892.38	3806.38	3746.38	3706.38	3674.38	3625.38	3567.38	3553.38	3500.38	3471.38	3396.38	3378.38	3356.38	3305.38	3273.38	3249.38	3218.38	3187.38	3184.38	3136.38	3064.38	3008.38	2984.38	2928.38	2905.38	2851.38	2855.38	2838.38	2829.38	2883.38	2888.38	2919.38	2966.38	3045.38	3088.38	3162.38	3208.38	3259.38	3295.38	3321.38	3418.38	3485.38	3584.38	3713.38	3869.38	4004.38	4199.38	4418.38	4693.38	5124.38	5601.38	6219.38	6948.38	7664.38	8311.38	8817.38	9123.38	9300.38	9237.38	9063.38	8795.38	8492.38	8212.38	7963.38	7622.38	7408.38	7114.38	6814.38	6473.38	6115.38	5759.38	5399.38	5082.38	4727.38	4459.38	4173.38	3927.38	3724.38	3539.38	3432.38	3298.38	3206.38	3105.38	3019.38	2954.38	2898.38	2856.38	2814.38	2780.38	2720.38	2693.38	2655.38	2645.38	2615.38	2602.38	2573.38	2537.38	2512.38	2497.38	2478.38	2474.38	2446.38	2430.38	2426.38	2412.38	2397.38	2397.38	2406.38	2376.38	2402.38	2395.38	2395.38	2386.38	2383.38	2401.38	2413.38	2420.38	2418.38	2438.38	2440.38	2431.38	2444.38	2442.38	2463.38	2472.38	2454.38	2458.38	2474.38	2460.38	2469.38	2474.38	2470.38	2478.38	2474.38	2460.38	2485.38	2461.38	2432.38	2442.38	2430.38	2436.38	2417.38	2414.38	2413.38	2405.38	2423.38	2400.38	2384.38	2398.38	2431.38	2369.38	2393.38	2368.38	2380.38	2387.38	2407.38	2406.38	2407.38	2434.38	2447.38	2471.38	2501.38	2514.38	2538.38	2575.38	2601.38	2634.38	2671.38	2772.38	2859.38	2995.38	3183.38	3430.38	3715.38	4096.38	4548.38	4983.38	5470.38	5975.38	6291.38	6486.38	6501.38	6313.38	5931.38	5455.38	4940.38	4456.38	4005.38	3603.38	3273.38	3027.38	2815.38	2642.38	2513.38	2441.38	2353.38	2299.38	2248.38	2197.38	2188.38	2132.38	2127.38	2098.38	2070.38	2056.38	2051.38	2029.38	1993.38	2013.38	2006.38	2015.38	2017.38	2032.38	2035.38	2045.38	2064.38	2080.38	2093.38	2123.38	2134.38	2166.38	2197.38	2228.38	2267.38	2301.38	2353.38	2408.38	2442.38	2555.38	2608.38	2696.38	2776.38	2817.38	2902.38	2954.38	2979.38	2997.38	2962.38	2953.38	2926.38	2819.38	2783.38	2710.38	2651.38	2567.38	2534.38	2482.38	2458.38	2405.38	2380.38	2368.38	2363.38	2341.38	2338.38	2318.38	2313.38	2301.38	2301.38	2302.38	2292.38	2274.38	2266.38	2246.38	2263.38	2221.38	2220.38	2212.38	2211.38	2195.38	2181.38	2194.38	2190.38	2179.38	2179.38	2187.38	2201.38	2186.38	2177.38	2178.38	2189.38	2201.38	2223.38	2216.38	2222.38	2229.38	2240.38	2239.38	2253.38	2240.38	2254.38	2295.38	2270.38	2281.38	2297.38	2278.38	2296.38	2267.38	2274.38	2287.38	2254.38	2261.38	2246.38	2229.38	2228.38	2201.38	2203.38	2176.38	2162.38	2148.38	2133.38	2130.38	2113.38	2121.38	2127.38	2118.38	2123.38	2114.38	2147.38	2107.38	2135.38	2125.38	2168.38	2151.38	2166.38	2171.38	2191.38	2208.38	2210.38	2212.38	2231.38	2245.38	2261.38	2287.38	2303.38	2286.38	2293.38	2296.38	2315.38	2318.38	2303.38	2327.38	2305.38	2315.38	2319.38	2318.38	2319.38	2305.38	2306.38	2311.38	2341.38	2312.38	2300.38	2340.38	2349.38	2331.38	2343.38	2347.38	2363.38	2377.38	2383.38	2381.38	2401.38	2407.38	2421.38	2414.38	2420.38	2428.38	2451.38	2441.38	2443.38	2469.38	2460.38	2461.38	2446.38	2449.38	2445.38	2430.38	2440.38	2438.38	2434.38	2428.38	2420.38	2427.38	2451.38	2440.38	2447.38	2459.38	2466.38	2512.38	2492.38	2507.38	2516.38	2571.38	2558.38	2589.38	2584.38	2593.38	2613.38	2635.38	2597.38	2596.38	2612.38	2603.38	2631.38	2622.38	2622.38	2676.38	2672.38	2697.38	2727.38	2731.38	2759.38	2771.38	2786.38	2802.38	2776.38	2729.38	2722.38	2725.38	2711.38	2702.38	2710.38	2716.38	2715.38	2703.38	2675.38	2608.38	2602.38	2607.38	2592.38	2576.38	2591.38	2523.38	2471.38	2453.38	-10.62	-14.62	-18.62	-14.62	60.38	71.38	63.38	39.38	12.38	8.38	2437.38	2429.38	2384.38	2333.38	2312.38	2273.38	-0.62	-12.62	-14.62	-12.62
11:22:12.162	1469002932162	12.38	6.38	11.38	10.38	5.38	11.38	13.38	19.38	13.38	16.38	21.38	17.38	19.38	18.38	18.38	26.38	28.38	26.38	35.38	38.38	41.38	44.38	72.38	68.38	84.38	104.38	134.38	171.38	213.38	283.38	372.38	502.38	678.38	895.38	1125.38	1381.38	1606.38	1771.38	1843.38	1800.38	1709.38	1537.38	1342.38	1134.38	974.38	823.38	715.38	618.38	542.38	495.38	457.38	424.38	401.38	377.38	374.38	361.38	337.38	339.38	346.38	337.38	369.38	362.38	403.38	436.38	487.38	544.38	641.38	753.38	903.38	1118.38	1380.38	1730.38	2171.38	2670.38	3290.38	4031.38	4862.38	5783.38	6703.38	7663.38	8573.38	9413.38	10115.38	10607.38	11002.38	11187.38	11285.38	11247.38	11099.38	10960.38	10727.38	10500.38	10339.38	10114.38	9996.38	9841.38	9768.38	9678.38	9668.38	9608.38	9663.38	9705.38	9801.38	9863.38	9944.38	10047.38	10162.38	10315.38	10448.38	10586.38	10722.38	10944.38	10980.38	11033.38	10941.38	10889.38	10837.38	10748.38	10610.38	10559.38	10418.38	10311.38	10194.38	10115.38	9973.38	9846.38	9705.38	9594.38	9502.38	9467.38	9385.38	9290.38	9233.38	9180.38	9136.38	9061.38	9054.38	9026.38	9041.38	9035.38	9059.38	9085.38	9106.38	9161.38	9163.38	9178.38	9248.38	9306.38	9353.38	9453.38	9468.38	9575.38	9592.38	9665.38	9727.38	9681.38	9678.38	9765.38	9707.38	9747.38	9695.38	9719.38	9710.38	9672.38	9639.38	9637.38	9572.38	9540.38	9457.38	9415.38	9385.38	9306.38	9318.38	9306.38	9230.38	9227.38	9237.38	9184.38	9191.38	9146.38	9198.38	9184.38	9195.38	9133.38	9167.38	9190.38	9164.38	9136.38	9148.38	9138.38	9168.38	9171.38	9141.38	9217.38	9251.38	9329.38	9541.38	10045.38	11442.38	14332.38	17623.38	19526.38	19661.38	17863.38	14468.38	11406.38	9772.38	9099.38	8814.38	8611.38	8474.38	8385.38	8290.38	8200.38	8136.38	8020.38	7988.38	7918.38	7884.38	7868.38	7790.38	7774.38	7771.38	7799.38	7737.38	7739.38	7738.38	7773.38	7746.38	7799.38	7791.38	7775.38	7793.38	7772.38	7785.38	7818.38	7779.38	7755.38	7781.38	7726.38	7708.38	7577.38	7545.38	7480.38	7455.38	7421.38	7376.38	7349.38	7302.38	7224.38	7182.38	7169.38	7159.38	7136.38	7099.38	7030.38	7030.38	6967.38	6904.38	6904.38	6854.38	6867.38	6791.38	6777.38	6765.38	6681.38	6651.38	7642.38	7579.38	6557.38	6551.38	6503.38	6516.38	6476.38	6514.38	6486.38	6502.38	6521.38	6545.38	6542.38	6544.38	6547.38	6538.38	6575.38	6585.38	6646.38	6649.38	6664.38	6703.38	6717.38	6727.38	6691.38	6662.38	6607.38	6580.38	6526.38	6465.38	6417.38	6332.38	6276.38	6261.38	6204.38	6185.38	6196.38	6108.38	6124.38	6105.38	6119.38	6078.38	6071.38	6026.38	6001.38	5980.38	5970.38	5947.38	5912.38	5885.38	5856.38	5873.38	5835.38	5820.38	5844.38	5828.38	5885.38	5942.38	5939.38	5993.38	6043.38	6109.38	6142.38	6171.38	6227.38	6248.38	6268.38	6304.38	6359.38	6436.38	6546.38	6625.38	6787.38	6891.38	6998.38	7067.38	7152.38	7229.38	7273.38	7299.38	7335.38	7373.38	7369.38	7404.38	7456.38	7541.38	7643.38	7688.38	7754.38	7778.38	7764.38	7697.38	7579.38	7476.38	7356.38	7251.38	7171.38	7122.38	7049.38	6965.38	6842.38	6811.38	6689.38	6616.38	6529.38	6488.38	6482.38	6504.38	6527.38	6484.38	6482.38	6475.38	6478.38	6441.38	6457.38	6418.38	6426.38	6478.38	6488.38	6496.38	6568.38	6615.38	6645.38	6629.38	6602.38	6607.38	6557.38	6512.38	6452.38	6430.38	6411.38	6391.38	6408.38	6443.38	6509.38	6564.38	6616.38	6664.38	6673.38	6564.38	6407.38	6223.38	6045.38	5883.38	5726.38	5624.38	5537.38	5452.38	5412.38	5382.38	5366.38	5400.38	5460.38	5454.38	5497.38	5529.38	5601.38	5641.38	5710.38	5739.38	5808.38	5810.38	5844.38	5821.38	5823.38	5778.38	5748.38	5780.38	5735.38	5753.38	5728.38	5732.38	5702.38	5714.38	5707.38	5696.38	5768.38	5828.38	5936.38	6062.38	6253.38	6429.38	6607.38	6679.38	6740.38	6792.38	6847.38	6877.38	6933.38	7045.38	7101.38	7155.38	7096.38	7051.38	6941.38	6713.38	6547.38	6391.38	6118.38	5925.38	5759.38	5586.38	5420.38	5311.38	5253.38	5240.38	5206.38	5165.38	5172.38	5160.38	5098.38	5005.38	4901.38	4745.38	4599.38	4486.38	4367.38	4290.38	4205.38	4173.38	4148.38	4131.38	4089.38	4099.38	4068.38	4048.38	4022.38	4003.38	4003.38	3980.38	3980.38	3966.38	3993.38	3987.38	4019.38	4005.38	3993.38	4046.38	3985.38	3994.38	4027.38	3983.38	3966.38	3969.38	3968.38	3929.38	3942.38	3951.38	3918.38	3898.38	3912.38	3892.38	3887.38	3883.38	3866.38	3856.38	3871.38	3869.38	3916.38	3889.38	3931.38	3989.38	3997.38	4063.38	4088.38	4123.38	4230.38	4251.38	4368.38	4447.38	4575.38	4706.38	4817.38	4967.38	5147.38	5366.38	5540.38	5792.38	6076.38	6290.38	6560.38	6800.38	7002.38	7145.38	7237.38	7264.38	7251.38	7214.38	7059.38	6931.38	6689.38	6525.38	6365.38	6222.38	6131.38	6084.38	6108.38	6227.38	6414.38	6619.38	6942.38	7250.38	7470.38	7567.38	7677.38	7618.38	7384.38	7119.38	6832.38	6473.38	6178.38	5861.38	5607.38	5417.38	5175.38	4991.38	4791.38	4602.38	4432.38	4241.38	4130.38	3990.38	3892.38	3806.38	3746.38	3706.38	3674.38	3625.38	3567.38	3553.38	3500.38	3471.38	3396.38	3378.38	3356.38	3305.38	3273.38	3249.38	3218.38	3187.38	3184.38	3136.38	3064.38	3008.38	2984.38	2928.38	2905.38	2851.38	2855.38	2838.38	2829.38	2883.38	2888.38	2919.38	2966.38	3045.38	3088.38	3162.38	3208.38	3259.38	3295.38	3321.38	3418.38	3485.38	3584.38	3713.38	3869.38	4004.38	4199.38	4418.38	4693.38	5124.38	5601.38	6219.38	6948.38	7664.38	8311.38	8817.38	9123.38	9300.38	9237.38	9063.38	8795.38	8492.38	8212.38	7963.38	7622.38	7408.38	7114.38	6814.38	6473.38	6115.38	5759.38	5399.38	5082.38	4727.38	4459.38	4173.38	3927.38	3724.38	3539.38	3432.38	3298.38	3206.38	3105.38	3019.38	2954.38	2898.38	2856.38	2814.38	2780.38	2720.38	2693.38	2655.38	2645.38	2615.38	2602.38	2573.38	2537.38	2512.38	2497.38	2478.38	2474.38	2446.38	2430.38	2426.38	2412.38	2397.38	2397.38	2406.38	2376.38	2402.38	2395.38	2395.38	2386.38	2383.38	2401.38	2413.38	2420.38	2418.38	2438.38	2440.38	2431.38	2444.38	2442.38	2463.38	2472.38	2454.38	2458.38	2474.38	2460.38	2469.38	2474.38	2470.38	2478.38	2474.38	2460.38	2485.38	2461.38	2432.38	2442.38	2430.38	2436.38	2417.38	2414.38	2413.38	2405.38	2423.38	2400.38	2384.38	2398.38	2431.38	2369.38	2393.38	2368.38	2380.38	2387.38	2407.38	2406.38	2407.38	2434.38	2447.38	2471.38	2501.38	2514.38	2538.38	2575.38	2601.38	2634.38	2671.38	2772.38	2859.38	2995.38	3183.38	3430.38	3715.38	4096.38	4548.38	4983.38	5470.38	5975.38	6291.38	6486.38	6501.38	6313.38	5931.38	5455.38	4940.38	4456.38	4005.38	3603.38	3273.38	3027.38	2815.38	2642.38	2513.38	2441.38	2353.38	2299.38	2248.38	2197.38	2188.38	2132.38	2127.38	2098.38	2070.38	2056.38	2051.38	2029.38	1993.38	2013.38	2006.38	2015.38	2017.38	2032.38	2035.38	2045.38	2064.38	2080.38	2093.38	2123.38	2134.38	2166.38	2197.38	2228.38	2267.38	2301.38	2353.38	2408.38	2442.38	2555.38	2608.38	2696.38	2776.38	2817.38	2902.38	2954.38	2979.38	2997.38	2962.38	2953.38	2926.38	2819.38	2783.38	2710.38	2651.38	2567.38	2534.38	2482.38	2458.38	2405.38	2380.38	2368.38	2363.38	2341.38	2338.38	2318.38	2313.38	2301.38	2301.38	2302.38	2292.38	2274.38	2266.38	2246.38	2263.38	2221.38	2220.38	2212.38	2211.38	2195.38	2181.38	2194.38	2190.38	2179.38	2179.38	2187.38	2201.38	2186.38	2177.38	2178.38	2189.38	2201.38	2223.38	2216.38	2222.38	2229.38	2240.38	2239.38	2253.38	2240.38	2254.38	2295.38	2270.38	2281.38	2297.38	2278.38	2296.38	2267.38	2274.38	2287.38	2254.38	2261.38	2246.38	2229.38	2228.38	2201.38	2203.38	2176.38	2162.38	2148.38	2133.38	2130.38	2113.38	2121.38	2127.38	2118.38	2123.38	2114.38	2147.38	2107.38	2135.38	2125.38	2168.38	2151.38	2166.38	2171.38	2191.38	2208.38	2210.38	2212.38	2231.38	2245.38	2261.38	2287.38	2303.38	2286.38	2293.38	2296.38	2315.38	2318.38	2303.38	2327.38	2305.38	2315.38	2319.38	2318.38	2319.38	2305.38	2306.38	2311.38	2341.38	2312.38	1300.38	1340.38	1349.38	1331.38	1343.38	2347.38	2363.38	2377.38	2383.38	2381.38	2401.38	2407.38	2421.38	2414.38	2420.38	2428.38	2451.38	2441.38	2443.38	2469.38	2460.38	2461.38	2446.38	2449.38	2445.38	2430.38	2440.38	2438.38	2434.38	2428.38	2420.38	2427.38	2451.38	2440.38	2447.38	2459.38	2466.38	2512.38	2492.38	2507.38	2516.38	2571.38	2558.38	2589.38	2584.38	2593.38	2613.38	2635.38	2597.38	2596.38	2612.38	2603.38	2631.38	2622.38	2622.38	2676.38	2672.38	2697.38	2727.38	2731.38	2759.38	2771.38	2786.38	2802.38	2776.38	2729.38	2722.38	2725.38	2711.38	2702.38	2710.38	2716.38	2715.38	2703.38	2675.38	2608.38	2602.38	2607.38	2592.38	2576.38	2591.38	2523.38	2471.38	2453.38	-10.62	-14.62	-18.62	-14.62	60.38	71.38	63.38	39.38	12.38	8.38	2437.38	2429.38	2384.38	2333.38	2312.38	2273.38	-0.62	-12.62	-14.62	-12.62
