OOIBase32 Version 2.0.0.5 Data File
++++++++++++++++++++++++++++++++++++
Date: 09-05-2013, 10:06:46
User: Valued Ocean Optics Customer
Spectrometer Serial Number: 
Spectrometer Channel: Master
Integration Time (msec): 18
Spectra Averaged: 1
Boxcar Smoothing: 0
Correct for Electrical Dark: Enabled
Time Normalized: Disabled
Dual-beam Reference: Disabled
Reference Channel: Master
Temperature: Not acquired
Spectrometer Type: S2000
ADC Type: USB2000
Number of Pixels in File: 2048
Graph Title: 
>>>>>Begin Spectral Data<<<<<
340.19	0.000
340.56	0.000
340.94	0.380
341.31	-2.201
341.68	-4.620
342.05	-8.201
342.42	-3.620
342.80	-1.201
343.17	1.380
343.54	-2.201
343.91	-5.620
344.29	0.799
344.66	2.380
345.03	-9.201
345.40	0.380
345.78	-3.201
346.15	-1.620
346.52	2.799
346.89	0.380
347.26	0.799
347.64	-6.620
348.01	-1.201
348.38	1.380
348.75	7.799
349.12	6.380
349.49	5.799
349.87	3.380
350.24	5.799
350.61	1.380
350.98	0.799
351.35	4.380
351.72	-0.201
352.10	-3.620
352.47	-2.201
352.84	-0.620
353.21	-2.201
353.58	-5.620
353.95	-3.201
354.32	-6.620
354.70	-3.201
355.07	-2.620
355.44	-0.201
355.81	-0.620
356.18	5.799
356.55	5.380
356.92	2.799
357.29	-8.620
357.67	-0.201
358.04	-1.620
358.41	-0.201
358.78	-7.620
359.15	-9.201
359.52	-1.620
359.89	-3.201
360.26	-4.620
360.63	-0.201
361.00	3.380
361.37	-4.201
361.74	-2.620
362.11	5.799
362.49	-1.620
362.86	0.799
363.23	-3.620
363.60	-3.201
363.97	-0.620
364.34	1.799
364.71	-1.620
365.08	-1.201
365.45	2.380
365.82	-7.201
366.19	-4.620
366.56	0.799
366.93	0.380
367.30	-2.201
367.67	1.380
368.04	-5.201
368.41	1.380
368.78	2.799
369.15	4.380
369.52	-0.201
369.89	0.380
370.26	4.799
370.63	1.380
371.00	5.799
371.37	10.380
371.74	10.799
372.11	19.380
372.48	22.799
372.85	14.380
373.22	23.799
373.59	21.380
373.96	27.799
374.33	24.380
374.70	27.799
375.07	24.380
375.44	27.799
375.80	28.380
376.17	32.799
376.54	24.380
376.91	32.799
377.28	36.380
377.65	32.799
378.02	36.380
378.39	39.799
378.76	38.380
379.13	26.799
379.50	36.380
379.87	39.799
380.23	41.380
380.60	40.799
380.97	30.380
381.34	44.799
381.71	38.380
382.08	40.799
382.45	33.380
382.82	35.799
383.18	31.380
383.55	34.799
383.92	23.380
384.29	29.799
384.66	36.380
385.03	37.799
385.40	43.380
385.76	49.799
386.13	51.380
386.50	57.799
386.87	42.380
387.24	45.799
387.61	50.380
387.97	51.799
388.34	54.380
388.71	59.799
389.08	43.380
389.45	56.799
389.82	54.380
390.18	58.799
390.55	62.380
390.92	69.799
391.29	68.380
391.66	72.799
392.02	70.380
392.39	67.799
392.76	71.380
393.13	73.799
393.49	65.380
393.86	53.799
394.23	54.380
394.60	61.799
394.96	56.380
395.33	56.799
395.70	71.380
396.07	71.799
396.43	82.380
396.80	71.799
397.17	75.380
397.54	73.799
397.90	65.380
398.27	85.799
398.64	76.380
399.01	101.799
399.37	101.380
399.74	111.799
400.11	121.380
400.47	128.799
400.84	121.380
401.21	134.799
401.58	131.380
401.94	140.799
402.31	137.380
402.68	139.799
403.04	138.380
403.41	145.799
403.78	139.380
404.14	138.799
404.51	143.380
404.88	139.799
405.24	125.380
405.61	133.799
405.98	156.380
406.34	139.799
406.71	151.380
407.08	152.799
407.44	137.380
407.81	146.799
408.17	154.380
408.54	153.799
408.91	152.380
409.27	160.799
409.64	158.380
410.01	156.799
410.37	149.380
410.74	167.799
411.10	155.380
411.47	165.799
411.84	166.380
412.20	167.799
412.57	173.380
412.93	173.799
413.30	188.380
413.66	189.799
414.03	186.380
414.40	171.799
414.76	176.380
415.13	177.799
415.49	173.380
415.86	190.799
416.22	168.380
416.59	185.799
416.95	202.380
417.32	183.799
417.69	187.380
418.05	193.799
418.42	184.380
418.78	188.799
419.15	190.380
419.51	188.799
419.88	174.380
420.24	187.799
420.61	192.380
420.97	195.799
421.34	200.380
421.70	200.799
422.07	186.380
422.43	200.799
422.80	188.380
423.16	195.799
423.53	194.380
423.89	204.799
424.26	193.380
424.62	193.799
424.99	183.380
425.35	195.799
425.71	187.380
426.08	194.799
426.44	196.380
426.81	196.799
427.17	186.380
427.54	189.799
427.90	202.380
428.27	193.799
428.63	186.380
428.99	194.799
429.36	192.380
429.72	192.799
430.09	183.380
430.45	164.799
430.82	161.380
431.18	178.799
431.54	181.380
431.91	197.799
432.27	196.380
432.64	203.799
433.00	214.380
433.36	223.799
433.73	218.380
434.09	225.799
434.45	226.380
434.82	218.799
435.18	235.380
435.55	219.799
435.91	241.380
436.27	259.799
436.64	250.380
437.00	261.799
437.36	246.380
437.73	251.799
438.09	239.380
438.45	241.799
438.82	250.380
439.18	244.799
439.54	242.380
439.91	247.799
440.27	264.380
440.63	246.799
440.99	249.380
441.36	266.799
441.72	271.380
442.08	274.799
442.45	277.380
442.81	282.799
443.17	280.380
443.54	285.799
443.90	284.380
444.26	269.799
444.62	286.380
444.99	281.799
445.35	274.380
445.71	278.799
446.07	289.380
446.44	285.799
446.80	276.380
447.16	281.799
447.52	300.380
447.89	290.799
448.25	296.380
448.61	298.799
448.97	322.380
449.34	318.799
449.70	306.380
450.06	306.799
450.42	324.380
450.78	321.799
451.15	321.380
451.51	330.799
451.87	328.380
452.23	324.799
452.59	291.380
452.96	302.799
453.32	321.380
453.68	317.799
454.04	319.380
454.40	316.799
454.76	317.380
455.13	312.799
455.49	327.380
455.85	316.799
456.21	327.380
456.57	332.799
456.93	343.380
457.29	329.799
457.66	333.380
458.02	328.799
458.38	322.380
458.74	337.799
459.10	331.380
459.46	339.799
459.82	336.380
460.18	348.799
460.55	330.380
460.91	356.799
461.27	354.380
461.63	364.799
461.99	360.380
462.35	359.799
462.71	357.380
463.07	368.799
463.43	376.380
463.79	389.799
464.15	372.380
464.51	387.799
464.87	375.380
465.24	369.799
465.60	378.380
465.96	376.799
466.32	395.380
466.68	408.799
467.04	374.380
467.40	406.799
467.76	378.380
468.12	404.799
468.48	421.380
468.84	399.799
469.20	419.380
469.56	414.799
469.92	428.380
470.28	418.799
470.64	437.380
471.00	438.799
471.36	440.380
471.72	448.799
472.08	459.380
472.44	479.799
472.80	475.380
473.16	466.799
473.52	508.380
473.88	516.799
474.24	510.380
474.60	529.799
474.96	524.380
475.32	529.799
475.68	532.380
476.03	530.799
476.39	553.380
476.75	555.799
477.11	561.380
477.47	573.799
477.83	569.380
478.19	594.799
478.55	600.380
478.91	613.799
479.27	631.380
479.63	632.799
479.99	624.380
480.34	638.799
480.70	637.380
481.06	649.799
481.42	663.380
481.78	673.799
482.14	682.380
482.50	705.799
482.86	694.380
483.22	701.799
483.57	697.380
483.93	699.799
484.29	697.380
484.65	692.799
485.01	698.380
485.37	683.799
485.72	664.380
486.08	656.799
486.44	647.380
486.80	642.799
487.16	658.380
487.52	679.799
487.87	693.380
488.23	717.799
488.59	720.380
488.95	732.799
489.31	752.380
489.66	749.799
490.02	765.380
490.38	764.799
490.74	787.380
491.10	775.799
491.45	753.380
491.81	779.799
492.17	765.380
492.53	779.799
492.88	762.380
493.24	767.799
493.60	782.380
493.96	802.799
494.31	791.380
494.67	805.799
495.03	812.380
495.39	792.799
495.74	806.380
496.10	801.799
496.46	794.380
496.82	800.799
497.17	813.380
497.53	808.799
497.89	821.380
498.24	782.799
498.60	791.380
498.96	798.799
499.32	768.380
499.67	786.799
500.03	789.380
500.39	774.799
500.74	767.380
501.10	751.799
501.46	772.380
501.81	771.799
502.17	768.380
502.53	758.799
502.88	761.380
503.24	758.799
503.60	756.380
503.95	750.799
504.31	765.380
504.66	749.799
505.02	759.380
505.38	785.799
505.73	788.380
506.09	780.799
506.45	792.380
506.80	797.799
507.16	781.380
507.51	768.799
507.87	770.380
508.23	773.799
508.58	771.380
508.94	785.799
509.29	768.380
509.65	757.799
510.00	785.380
510.36	767.799
510.72	789.380
511.07	781.799
511.43	775.380
511.78	776.799
512.14	784.380
512.49	771.799
512.85	766.380
513.20	769.799
513.56	762.380
513.92	755.799
514.27	744.380
514.63	724.799
514.98	736.380
515.34	737.799
515.69	734.380
516.05	732.799
516.40	717.380
516.76	716.799
517.11	698.380
517.47	680.799
517.82	680.380
518.18	676.799
518.53	686.380
518.89	706.799
519.24	709.380
519.59	737.799
519.95	722.380
520.30	762.799
520.66	739.380
521.01	733.799
521.37	745.380
521.72	745.799
522.08	777.380
522.43	748.799
522.79	750.380
523.14	747.799
523.49	742.380
523.85	750.799
524.20	763.380
524.56	777.799
524.91	756.380
525.26	781.799
525.62	769.380
525.97	753.799
526.33	731.380
526.68	722.799
527.03	725.380
527.39	705.799
527.74	716.380
528.10	719.799
528.45	740.380
528.80	774.799
529.16	769.380
529.51	773.799
529.86	774.380
530.22	756.799
530.57	776.380
530.92	757.799
531.28	777.380
531.63	770.799
531.98	766.380
532.34	731.799
532.69	733.380
533.04	724.799
533.40	741.380
533.75	728.799
534.10	747.380
534.46	740.799
534.81	743.380
535.16	775.799
535.51	737.380
535.87	744.799
536.22	732.380
536.57	724.799
536.93	741.380
537.28	740.799
537.63	725.380
537.98	732.799
538.34	727.380
538.69	723.799
539.04	709.380
539.39	727.799
539.75	704.380
540.10	705.799
540.45	690.380
540.80	681.799
541.15	699.380
541.51	702.799
541.86	692.380
542.21	695.799
542.56	698.380
542.92	698.799
543.27	695.380
543.62	677.799
543.97	697.380
544.32	702.799
544.67	706.380
545.03	701.799
545.38	694.380
545.73	695.799
546.08	694.380
546.43	680.799
546.78	684.380
547.14	674.799
547.49	675.380
547.84	684.799
548.19	682.380
548.54	672.799
548.89	674.380
549.24	666.799
549.60	685.380
549.95	667.799
550.30	674.380
550.65	673.799
551.00	652.380
551.35	670.799
551.70	665.380
552.05	657.799
552.40	659.380
552.76	653.799
553.11	644.380
553.46	654.799
553.81	652.380
554.16	666.799
554.51	650.380
554.86	649.799
555.21	653.380
555.56	639.799
555.91	641.380
556.26	636.799
556.61	642.380
556.96	623.799
557.31	620.380
557.66	618.799
558.01	606.380
558.36	619.799
558.71	604.380
559.06	614.799
559.41	609.380
559.76	604.799
560.11	606.380
560.46	610.799
560.81	606.380
561.16	614.799
561.51	613.380
561.86	622.799
562.21	613.380
562.56	597.799
562.91	609.380
563.26	607.799
563.61	598.380
563.96	609.799
564.31	589.380
564.66	601.799
565.01	578.380
565.36	590.799
565.71	600.380
566.06	586.799
566.41	578.380
566.76	586.799
567.11	584.380
567.45	586.799
567.80	596.380
568.15	591.799
568.50	575.380
568.85	566.799
569.20	588.380
569.55	569.799
569.90	559.380
570.25	566.799
570.59	558.380
570.94	554.799
571.29	563.380
571.64	563.799
571.99	573.380
572.34	576.799
572.69	574.380
573.04	549.799
573.38	574.380
573.73	561.799
574.08	566.380
574.43	563.799
574.78	558.380
575.13	554.799
575.47	540.380
575.82	552.799
576.17	558.380
576.52	561.799
576.87	556.380
577.21	538.799
577.56	538.380
577.91	538.799
578.26	524.380
578.60	543.799
578.95	539.380
579.30	542.799
579.65	546.380
580.00	555.799
580.34	558.380
580.69	551.799
581.04	561.380
581.39	560.799
581.73	547.380
582.08	555.799
582.43	554.380
582.78	554.799
583.12	565.380
583.47	549.799
583.82	563.380
584.16	548.799
584.51	536.380
584.86	550.799
585.21	556.380
585.55	539.799
585.90	519.380
586.25	531.799
586.59	543.380
586.94	526.799
587.29	537.380
587.63	522.799
587.98	497.380
588.33	496.799
588.67	475.380
589.02	459.799
589.37	476.380
589.71	461.799
590.06	464.380
590.40	476.799
590.75	469.380
591.10	474.799
591.44	472.380
591.79	486.799
592.14	483.380
592.48	486.799
592.83	481.380
593.17	488.799
593.52	488.380
593.87	467.799
594.21	475.380
594.56	464.799
594.90	476.380
595.25	473.799
595.60	465.380
595.94	479.799
596.29	460.380
596.63	465.799
596.98	468.380
597.32	478.799
597.67	468.380
598.01	469.799
598.36	461.380
598.70	468.799
599.05	458.380
599.40	449.799
599.74	457.380
600.09	459.799
600.43	453.380
600.78	457.799
601.12	448.380
601.47	443.799
601.81	440.380
602.16	450.799
602.50	447.380
602.85	448.799
603.19	447.380
603.53	439.799
603.88	453.380
604.22	443.799
604.57	450.380
604.91	448.799
605.26	452.380
605.60	447.799
605.95	436.380
606.29	436.799
606.64	444.380
606.98	431.799
607.32	443.380
607.67	425.799
608.01	422.380
608.36	422.799
608.70	420.380
609.04	418.799
609.39	409.380
609.73	417.799
610.08	412.380
610.42	415.799
610.76	427.380
611.11	410.799
611.45	413.380
611.80	400.799
612.14	415.380
612.48	409.799
612.83	422.380
613.17	398.799
613.51	394.380
613.86	393.799
614.20	405.380
614.54	387.799
614.89	388.380
615.23	383.799
615.57	382.380
615.92	387.799
616.26	380.380
616.60	384.799
616.95	382.380
617.29	400.799
617.63	370.380
617.97	377.799
618.32	381.380
618.66	386.799
619.00	392.380
619.35	393.799
619.69	379.380
620.03	380.799
620.37	385.380
620.72	378.799
621.06	378.380
621.40	387.799
621.74	366.380
622.09	370.799
622.43	373.380
622.77	358.799
623.11	368.380
623.45	377.799
623.80	356.380
624.14	352.799
624.48	360.380
624.82	350.799
625.17	353.380
625.51	359.799
625.85	355.380
626.19	358.799
626.53	346.380
626.87	337.799
627.22	357.380
627.56	346.799
627.90	343.380
628.24	334.799
628.58	332.380
628.92	326.799
629.27	336.380
629.61	339.799
629.95	332.380
630.29	330.799
630.63	332.380
630.97	326.799
631.31	338.380
631.65	334.799
632.00	342.380
632.34	325.799
632.68	329.380
633.02	327.799
633.36	328.380
633.70	321.799
634.04	321.380
634.38	342.799
634.72	318.380
635.06	326.799
635.40	332.380
635.74	322.799
636.09	329.380
636.43	326.799
636.77	314.380
637.11	338.799
637.45	328.380
637.79	324.799
638.13	334.380
638.47	321.799
638.81	338.380
639.15	318.799
639.49	318.380
639.83	318.799
640.17	314.380
640.51	313.799
640.85	308.380
641.19	304.799
641.53	324.380
641.87	310.799
642.21	316.380
642.55	303.799
642.89	312.380
643.23	313.799
643.57	303.380
643.91	301.799
644.25	309.380
644.59	317.799
644.92	305.380
645.26	298.799
645.60	290.380
645.94	286.799
646.28	295.380
646.62	293.799
646.96	279.380
647.30	279.799
647.64	274.380
647.98	280.799
648.32	280.380
648.66	273.799
648.99	269.380
649.33	280.799
649.67	274.380
650.01	270.799
650.35	273.380
650.69	273.799
651.03	272.380
651.36	261.799
651.70	273.380
652.04	259.799
652.38	262.380
652.72	269.799
653.06	280.380
653.40	270.799
653.73	270.380
654.07	268.799
654.41	264.380
654.75	256.799
655.09	242.380
655.42	234.799
655.76	230.380
656.10	228.799
656.44	221.380
656.78	231.799
657.11	239.380
657.45	243.799
657.79	244.380
658.13	244.799
658.46	245.380
658.80	259.799
659.14	237.380
659.48	254.799
659.81	244.380
660.15	249.799
660.49	251.380
660.83	256.799
661.16	249.380
661.50	251.799
661.84	254.380
662.17	261.799
662.51	243.380
662.85	238.799
663.19	251.380
663.52	232.799
663.86	244.380
664.20	246.799
664.53	236.380
664.87	247.799
665.21	242.380
665.54	238.799
665.88	241.380
666.22	242.799
666.55	233.380
666.89	234.799
667.23	234.380
667.56	236.799
667.90	228.380
668.24	215.799
668.57	218.380
668.91	236.799
669.24	225.380
669.58	213.799
669.92	216.380
670.25	227.799
670.59	219.380
670.92	222.799
671.26	220.380
671.60	219.799
671.93	222.380
672.27	224.799
672.60	224.380
672.94	218.799
673.27	205.380
673.61	206.799
673.94	215.380
674.28	211.799
674.62	204.380
674.95	206.799
675.29	210.380
675.62	206.799
675.96	212.380
676.29	200.799
676.63	215.380
676.96	209.799
677.30	197.380
677.63	200.799
677.97	183.380
678.30	195.799
678.64	203.380
678.97	202.799
679.31	202.380
679.64	186.799
679.98	189.380
680.31	194.799
680.65	189.380
680.98	192.799
681.31	192.380
681.65	201.799
681.98	210.380
682.32	185.799
682.65	183.380
682.99	181.799
683.32	189.380
683.65	182.799
683.99	188.380
684.32	184.799
684.66	179.380
684.99	182.799
685.32	182.380
685.66	180.799
685.99	157.380
686.33	154.799
686.66	140.380
686.99	149.799
687.33	133.380
687.66	132.799
687.99	135.380
688.33	141.799
688.66	132.380
688.99	141.799
689.33	137.380
689.66	129.799
689.99	133.380
690.33	145.799
690.66	141.380
690.99	160.799
691.33	148.380
691.66	157.799
691.99	156.380
692.33	152.799
692.66	148.380
692.99	151.799
693.33	139.380
693.66	139.799
693.99	144.380
694.32	151.799
694.66	152.380
694.99	140.799
695.32	148.380
695.65	153.799
695.99	154.380
696.32	141.799
696.65	152.380
696.98	153.799
697.32	158.380
697.65	153.799
697.98	157.380
698.31	145.799
698.64	155.380
698.98	147.799
699.31	142.380
699.64	137.799
699.97	139.380
700.30	147.799
700.64	142.380
700.97	148.799
701.30	139.380
701.63	149.799
701.96	141.380
702.29	137.799
702.62	144.380
702.96	134.799
703.29	147.380
703.62	145.799
703.95	140.380
704.28	138.799
704.61	139.380
704.94	147.799
705.28	147.380
705.61	138.799
705.94	142.380
706.27	133.799
706.60	135.380
706.93	129.799
707.26	137.380
707.59	138.799
707.92	134.380
708.25	137.799
708.58	134.380
708.91	133.799
709.25	129.380
709.58	130.799
709.91	134.380
710.24	135.799
710.57	133.380
710.90	142.799
711.23	130.380
711.56	135.799
711.89	140.380
712.22	131.799
712.55	133.380
712.88	133.799
713.21	138.380
713.54	122.799
713.87	118.380
714.20	123.799
714.53	121.380
714.86	126.799
715.19	117.380
715.52	122.799
715.85	118.380
716.18	112.799
716.51	109.380
716.83	96.799
717.16	100.380
717.49	94.799
717.82	90.380
718.15	89.799
718.48	84.380
718.81	83.799
719.14	75.380
719.47	86.799
719.80	82.380
720.13	78.799
720.46	84.380
720.78	84.799
721.11	91.380
721.44	99.799
721.77	101.380
722.10	94.799
722.43	99.380
722.76	97.799
723.09	92.380
723.41	83.799
723.74	83.380
724.07	87.799
724.40	78.380
724.73	75.799
725.06	84.380
725.38	75.799
725.71	82.380
726.04	81.799
726.37	80.380
726.70	87.799
727.02	77.380
727.35	83.799
727.68	89.380
728.01	80.799
728.34	80.380
728.66	86.799
728.99	77.380
729.32	78.799
729.65	81.380
729.97	85.799
730.30	85.380
730.63	79.799
730.96	83.380
731.28	80.799
731.61	86.380
731.94	89.799
732.27	94.380
732.59	90.799
732.92	95.380
733.25	89.799
733.57	90.380
733.90	86.799
734.23	88.380
734.55	95.799
734.88	80.380
735.21	90.799
735.53	97.380
735.86	97.799
736.19	93.380
736.51	87.799
736.84	97.380
737.17	84.799
737.49	79.380
737.82	91.799
738.15	93.380
738.47	89.799
738.80	78.380
739.12	85.799
739.45	90.380
739.78	85.799
740.10	90.380
740.43	91.799
740.76	80.380
741.08	84.799
741.41	89.380
741.73	84.799
742.06	83.380
742.38	81.799
742.71	83.380
743.04	89.799
743.36	86.380
743.69	81.799
744.01	82.380
744.34	85.799
744.66	95.380
744.99	85.799
745.31	78.380
745.64	77.799
745.96	80.380
746.29	93.799
746.61	87.380
746.94	80.799
747.26	87.380
747.59	91.799
747.91	79.380
748.24	79.799
748.56	74.380
748.89	79.799
749.21	90.380
749.54	75.799
749.86	71.380
750.19	66.799
750.51	72.380
750.83	77.799
751.16	72.380
751.48	77.799
751.81	69.380
752.13	71.799
752.46	70.380
752.78	71.799
753.10	68.380
753.43	76.799
753.75	60.380
754.08	70.799
754.40	74.380
754.72	75.799
755.05	74.380
755.37	63.799
755.70	72.380
756.02	71.799
756.34	74.380
756.67	63.799
756.99	72.380
757.31	70.799
757.64	64.380
757.96	69.799
758.28	62.380
758.61	57.799
758.93	49.380
759.25	43.799
759.58	31.380
759.90	24.799
760.22	22.380
760.54	17.799
760.87	11.380
761.19	18.799
761.51	20.380
761.84	22.799
762.16	13.380
762.48	29.799
762.80	27.380
763.13	28.799
763.45	27.380
763.77	31.799
764.09	24.380
764.42	34.799
764.74	33.380
765.06	28.799
765.38	31.380
765.70	43.799
766.03	36.380
766.35	49.799
766.67	49.380
766.99	47.799
767.31	51.380
767.64	52.799
767.96	50.380
768.28	52.799
768.60	58.380
768.92	48.799
769.24	47.380
769.57	47.799
769.89	46.380
770.21	47.799
770.53	58.380
770.85	56.799
771.17	59.380
771.49	56.799
771.82	50.380
772.14	55.799
772.46	59.380
772.78	49.799
773.10	55.380
773.42	54.799
773.74	52.380
774.06	49.799
774.38	50.380
774.70	51.799
775.02	52.380
775.35	55.799
775.67	58.380
775.99	49.799
776.31	53.380
776.63	53.799
776.95	50.380
777.27	53.799
777.59	48.380
777.91	56.799
778.23	57.380
778.55	55.799
778.87	43.380
779.19	48.799
779.51	50.380
779.83	39.799
780.15	40.380
780.47	48.799
780.79	46.380
781.11	42.799
781.43	41.380
781.75	47.799
782.07	49.380
782.39	51.799
782.71	46.380
783.03	42.799
783.34	47.380
783.66	40.799
783.98	38.380
784.30	48.799
784.62	39.380
784.94	52.799
785.26	35.380
785.58	52.799
785.90	51.380
786.22	39.799
786.54	41.380
786.85	40.799
787.17	48.380
787.49	46.799
787.81	38.380
788.13	39.799
788.45	44.380
788.77	37.799
789.08	41.380
789.40	41.799
789.72	40.380
790.04	35.799
790.36	36.380
790.68	49.799
790.99	39.380
791.31	44.799
791.63	42.380
791.95	35.799
792.27	44.380
792.58	43.799
792.90	38.380
793.22	43.799
793.54	36.380
793.86	33.799
794.17	40.380
794.49	44.799
794.81	36.380
795.13	33.799
795.44	33.380
795.76	49.799
796.08	29.380
796.40	41.799
796.71	39.380
797.03	27.799
797.35	42.380
797.66	40.799
797.98	28.380
798.30	34.799
798.61	31.380
798.93	40.799
799.25	38.380
799.57	37.799
799.88	30.380
800.20	31.799
800.52	35.380
800.83	37.799
801.15	33.380
801.46	29.799
801.78	35.380
802.10	37.799
802.41	33.380
802.73	36.799
803.05	31.380
803.36	38.799
803.68	36.380
803.99	29.799
804.31	35.380
804.63	32.799
804.94	36.380
805.26	35.799
805.57	33.380
805.89	42.799
806.21	36.380
806.52	30.799
806.84	41.380
807.15	35.799
807.47	31.380
807.78	34.799
808.10	44.380
808.41	33.799
808.73	40.380
809.04	30.799
809.36	33.380
809.67	29.799
809.99	27.380
810.30	27.799
810.62	28.380
810.93	34.799
811.25	37.380
811.56	37.799
811.88	19.380
812.19	39.799
812.51	26.380
812.82	28.799
813.14	23.380
813.45	21.799
813.77	30.380
814.08	26.799
814.40	26.380
814.71	24.799
815.02	23.380
815.34	19.799
815.65	23.380
815.97	20.799
816.28	24.380
816.59	23.799
816.91	23.380
817.22	27.799
817.54	19.380
817.85	16.799
818.16	19.380
818.48	24.799
818.79	18.380
819.10	22.799
819.42	22.380
819.73	19.799
820.04	29.380
820.36	16.799
820.67	21.380
820.98	21.799
821.30	14.380
821.61	22.799
821.92	19.380
822.24	25.799
822.55	23.380
822.86	19.799
823.18	24.380
823.49	22.799
823.80	23.380
824.11	25.799
824.43	25.380
824.74	27.799
825.05	22.380
825.36	21.799
825.68	24.380
825.99	33.799
826.30	29.380
826.61	25.799
826.93	26.380
827.24	28.799
827.55	23.380
827.86	27.799
828.17	20.380
828.49	23.799
828.80	13.380
829.11	20.799
829.42	22.380
829.73	17.799
830.05	22.380
830.36	23.799
830.67	19.380
830.98	18.799
831.29	15.380
831.60	21.799
831.92	26.380
832.23	24.799
832.54	22.380
832.85	22.799
833.16	17.380
833.47	24.799
833.78	22.380
834.09	24.799
834.40	16.380
834.72	20.799
835.03	18.380
835.34	19.799
835.65	20.380
835.96	24.799
836.27	21.380
836.58	22.799
836.89	15.380
837.20	24.799
837.51	22.380
837.82	12.799
838.13	22.380
838.44	28.799
838.75	19.380
839.06	23.799
839.37	17.380
839.68	19.799
839.99	25.380
840.30	28.799
840.61	23.380
840.92	22.799
841.23	16.380
841.54	18.799
841.85	15.380
842.16	24.799
842.47	18.380
842.78	21.799
843.09	19.380
843.40	14.799
843.71	19.380
844.02	17.799
844.33	23.380
844.64	18.799
844.95	16.380
845.26	20.799
845.56	17.380
845.87	19.799
846.18	20.380
846.49	25.799
846.80	13.380
847.11	10.799
847.42	21.380
847.73	27.799
848.04	19.380
848.34	15.799
848.65	18.380
848.96	17.799
849.27	15.380
849.58	22.799
849.89	19.380
850.19	26.799
850.50	19.380
850.81	22.799
851.12	19.380
851.43	11.799
851.74	19.380
852.04	17.799
852.35	10.380
852.66	9.799
852.97	11.380
853.27	11.799
853.58	14.380
853.89	11.799
854.20	18.380
854.50	15.799
854.81	10.380
855.12	11.799
855.43	17.380
855.73	9.799
856.04	15.380
856.35	20.799
856.66	13.380
856.96	14.799
857.27	16.380
857.58	13.799
857.88	17.380
858.19	18.799
858.50	9.380
858.80	18.799
859.11	16.380
859.42	13.799
859.72	12.380
860.03	18.799
860.34	11.380
860.64	12.799
860.95	10.380
861.26	10.799
861.56	15.380
861.87	17.799
862.18	13.380
862.48	14.799
862.79	19.380
863.09	17.799
863.40	11.380
863.71	25.799
864.01	20.380
864.32	19.799
864.62	7.380
864.93	13.799
865.23	12.380
865.54	13.799
865.85	10.380
866.15	13.799
866.46	12.380
866.76	9.799
867.07	8.380
867.37	8.799
867.68	14.380
867.98	11.799
868.29	8.380
868.59	15.799
868.90	7.380
869.20	15.799
869.51	13.380
869.81	12.799
870.12	8.380
870.42	4.799
870.73	5.380
871.03	16.799
871.34	6.380
871.64	9.799
871.94	12.380
872.25	16.799
872.55	20.380
872.86	9.799
873.16	14.380
873.47	22.799
873.77	7.380
874.07	7.799
874.38	13.380
874.68	8.799
874.99	6.380
875.29	8.799
875.59	10.380
875.90	7.799
876.20	11.380
876.50	14.799
876.81	10.380
877.11	6.799
877.41	8.380
877.72	4.799
878.02	8.380
878.32	11.799
878.63	14.380
878.93	10.799
879.23	8.380
879.54	7.799
879.84	9.380
880.14	8.799
880.45	5.380
880.75	6.799
881.05	9.380
881.35	13.799
881.66	17.380
881.96	11.799
882.26	9.380
882.56	8.799
882.87	10.380
883.17	7.799
883.47	15.380
883.77	10.799
884.08	8.380
884.38	10.799
884.68	11.380
884.98	6.799
885.29	0.380
885.59	1.799
885.89	7.380
886.19	10.799
886.49	7.380
886.79	8.799
887.10	9.380
887.40	17.799
887.70	6.380
888.00	15.799
888.30	8.380
888.60	14.799
888.90	6.380
889.21	0.799
889.51	8.380
889.81	1.799
890.11	7.380
890.41	9.799
890.71	0.380
891.01	-1.201
891.31	4.380
891.61	1.799
891.92	-0.620
892.22	2.799
892.52	1.380
892.82	-1.201
893.12	0.380
893.42	5.799
893.72	8.380
894.02	7.799
894.32	6.380
894.62	9.799
894.92	3.380
895.22	4.799
895.52	9.380
895.82	10.799
896.12	8.380
896.42	8.799
896.72	-4.620
897.02	4.799
897.32	5.380
897.62	4.799
897.92	1.380
898.22	3.799
898.52	0.380
898.82	-1.201
899.12	-0.620
899.42	11.799
899.72	4.380
900.02	2.799
900.32	8.380
900.61	6.799
900.91	4.380
901.21	3.799
901.51	7.380
901.81	4.799
902.11	10.380
902.41	6.799
902.71	3.380
903.01	5.799
903.30	7.380
903.60	5.799
903.90	4.380
904.20	5.799
904.50	12.380
904.80	6.799
905.10	0.380
905.39	9.799
905.69	9.380
905.99	6.799
906.29	4.380
906.59	1.799
906.88	5.380
907.18	7.799
907.48	2.380
907.78	8.799
908.08	2.380
908.37	6.799
908.67	-6.620
908.97	2.799
909.27	1.380
909.56	11.799
909.86	7.380
910.16	8.799
910.46	-0.620
910.75	1.799
911.05	9.380
911.35	13.799
911.65	2.380
911.94	2.799
912.24	4.380
912.54	5.799
912.83	2.380
913.13	8.799
913.43	2.380
913.72	0.799
914.02	4.380
914.32	5.799
914.61	3.380
914.91	3.799
915.21	4.380
915.50	5.799
915.80	12.380
916.10	4.799
916.39	7.380
916.69	14.799
916.98	8.380
917.28	6.799
917.58	0.380
917.87	7.799
918.17	-0.620
918.46	1.799
918.76	-1.620
919.05	5.799
919.35	8.380
919.65	2.799
919.94	3.380
920.24	8.799
920.53	4.380
920.83	8.799
921.12	2.380
921.42	7.799
921.71	-2.620
922.01	8.799
922.30	-2.620
922.60	2.799
922.89	8.380
923.19	1.799
923.48	-0.620
923.78	9.799
924.07	4.380
924.37	1.799
924.66	10.380
924.96	1.799
925.25	1.380
925.55	2.799
925.84	4.380
926.13	2.799
926.43	1.380
926.72	2.799
927.02	-0.620
927.31	1.799
927.60	3.380
927.90	4.799
928.19	0.380
928.49	4.799
928.78	2.380
929.07	2.799
929.37	-1.620
929.66	-2.201
929.96	10.380
930.25	6.799
930.54	-4.620
930.84	3.799
931.13	4.380
931.42	7.799
931.72	-1.620
932.01	-0.201
932.30	-0.620
932.59	4.799
932.89	4.380
933.18	8.799
933.47	5.380
933.77	2.799
934.06	-2.620
934.35	4.799
934.64	7.380
934.94	1.799
935.23	3.380
935.52	10.799
935.81	-4.620
936.11	-0.201
936.40	0.380
936.69	-2.201
936.98	-2.620
937.28	0.799
937.57	2.380
937.86	2.799
938.15	3.380
938.44	2.799
938.74	0.380
939.03	3.799
939.32	8.380
939.61	-2.201
939.90	-0.620
940.19	0.799
940.49	-0.620
940.78	2.799
941.07	1.380
941.36	2.799
941.65	4.380
941.94	4.799
942.23	1.380
942.53	-3.201
942.82	-2.620
943.11	-3.201
943.40	-1.620
943.69	-0.201
943.98	-0.620
944.27	1.799
944.56	2.380
944.85	2.799
945.14	1.380
945.43	2.799
945.72	7.380
946.01	-1.201
946.30	6.380
946.59	-1.201
946.88	3.380
947.18	0.799
947.47	-0.620
947.76	12.799
948.05	1.380
948.34	1.799
948.63	-1.620
948.91	1.799
949.20	-2.620
949.49	2.799
949.78	-0.620
950.07	1.799
950.36	-5.620
950.65	-0.201
950.94	-1.620
951.23	0.799
951.52	4.380
951.81	3.799
952.10	-2.620
952.39	4.799
952.68	8.380
952.97	-1.201
953.26	-1.620
953.54	0.799
953.83	0.380
954.12	-4.201
954.41	3.380
954.70	2.799
954.99	-0.620
955.28	-4.201
955.57	2.380
955.85	2.799
956.14	-2.620
956.43	5.799
956.72	-4.620
957.01	1.799
957.29	-2.620
957.58	-1.201
957.87	1.380
958.16	8.799
958.45	2.380
958.73	0.799
959.02	3.380
959.31	-0.201
959.60	-0.620
959.89	3.799
960.17	3.380
960.46	2.799
960.75	-1.620
961.04	1.799
961.32	-5.620
961.61	-1.201
961.90	4.380
962.18	3.799
962.47	1.380
962.76	3.799
963.05	0.380
963.33	-5.201
963.62	-3.620
963.91	4.799
964.19	11.380
964.48	3.799
964.77	6.380
965.05	6.799
965.34	-2.620
965.63	-0.201
965.91	-3.620
966.20	2.799
966.48	-2.620
966.77	1.799
967.06	-0.620
967.34	-1.201
967.63	1.380
967.91	-0.201
968.20	1.380
968.49	-0.201
968.77	0.380
969.06	5.799
969.34	-2.620
969.63	4.799
969.91	-0.620
970.20	4.799
970.49	-2.620
970.77	1.799
971.06	-2.620
971.34	2.799
971.63	8.380
971.91	-2.201
972.20	-8.620
972.48	-2.201
972.77	2.380
973.05	-3.201
973.34	-9.620
973.62	-4.201
973.91	-4.620
974.19	-5.201
974.48	-5.620
974.76	-5.201
975.04	-3.620
975.33	-0.201
975.61	1.380
975.90	0.799
976.18	-1.620
976.47	-4.201
976.75	-2.620
977.03	-1.201
977.32	-8.620
977.60	14.799
977.89	1.380
978.17	8.799
978.45	-0.620
978.74	-2.201
979.02	2.380
979.30	2.799
979.59	2.380
979.87	3.799
980.16	-0.620
980.44	0.799
980.72	3.380
981.01	1.799
981.29	4.380
981.57	-3.201
981.85	-5.620
982.14	2.799
982.42	-6.620
982.70	-1.201
982.99	3.380
983.27	6.799
983.55	2.380
983.83	0.799
984.12	-3.620
984.40	4.799
984.68	3.380
984.96	0.799
985.25	-1.620
985.53	3.799
985.81	8.380
986.09	5.799
986.38	4.380
986.66	5.799
986.94	12.380
987.22	5.799
987.50	3.380
987.78	2.799
988.07	-1.620
988.35	0.799
988.63	0.380
988.91	-0.201
989.19	-0.620
989.47	-1.201
989.76	7.380
990.04	2.799
990.32	-1.620
990.60	2.799
990.88	2.380
991.16	-1.201
991.44	-7.620
991.72	4.799
992.00	-1.620
992.29	4.799
992.57	5.380
992.85	1.799
993.13	-1.620
993.41	3.799
993.69	-0.620
993.97	5.799
994.25	1.380
994.53	8.799
994.81	4.380
995.09	3.799
995.37	4.380
995.65	5.799
995.93	1.380
996.21	6.799
996.49	0.380
996.77	6.799
997.05	2.380
997.33	3.799
997.61	7.380
997.89	4.799
998.17	3.380
998.45	5.799
998.73	2.380
999.01	4.799
999.29	1.380
999.57	1.799
999.85	-2.620
1000.12	3.799
1000.40	3.380
1000.68	0.799
1000.96	0.380
1001.24	4.799
1001.52	4.380
1001.80	0.799
1002.08	1.380
1002.36	3.799
1002.63	6.380
1002.91	9.799
1003.19	-1.620
1003.47	-2.201
1003.75	8.380
1004.03	-0.201
1004.30	0.380
1004.58	4.799
1004.86	-4.620
1005.14	-0.201
1005.42	1.380
1005.69	-1.201
1005.97	1.380
1006.25	-0.201
1006.53	-1.620
1006.81	-0.201
1007.08	0.380
1007.36	1.799
1007.64	2.380
1007.92	2.799
1008.19	0.380
1008.47	4.799
1008.75	1.380
1009.02	3.799
1009.30	-4.620
1009.58	-0.201
1009.86	0.380
1010.13	3.799
1010.41	-3.620
1010.69	1.799
1010.96	-3.620
1011.24	6.799
1011.52	-0.620
1011.79	10.799
1012.07	6.380
1012.35	4.799
1012.62	-2.620
1012.90	3.799
1013.18	2.380
1013.45	5.799
1013.73	3.380
1014.00	4.799
>>>>>End Spectral Data<<<<<
